File: sandbox/measuring_monthly_increases/offline_data/TGA.txt
2005-01-03, 4.88
2005-01-06, 4.74
2005-01-11, 4.69
2005-01-14, 5.73
2005-01-20, 5.72
2005-01-25, 5.95
2005-01-28, 5.98
2005-02-02, 6.69
2005-02-07, 6.75
2005-02-10, 6.56
2005-02-15, 6.78
2005-02-18, 7.69
2005-02-24, 8.48
2005-03-01, 7.65
2005-03-04, 7.15
2005-03-09, 7.17
2005-03-14, 6.31
2005-03-17, 6.48
2005-03-22, 6.67
2005-03-28, 6.14
2005-03-31, 6.41
2005-04-05, 6.29
2005-04-08, 6.2
2005-04-13, 5.67
2005-04-18, 4.85
2005-04-21, 5.28
2005-04-26, 6.1
2005-04-29, 5.18
2005-05-04, 5.14
2005-05-09, 5.42
2005-05-12, 5.01
2005-05-17, 4.76
2005-05-20, 4.47
2005-05-25, 4.56
2005-05-31, 5.1
2005-06-03, 5.56
2005-06-08, 5.8
2005-06-13, 6.46
2005-06-16, 6.45
2005-06-21, 6.89
2005-06-24, 6.91
2005-06-29, 6.52
2005-07-05, 6.96
2005-07-08, 6.94
2005-07-13, 6.76
2005-07-18, 6.33
2005-07-21, 6.3
2005-07-26, 6.1
2005-07-29, 6.75
2005-08-03, 6.4
2005-08-08, 6.43
2005-08-11, 6.49
2005-08-16, 6.15
2005-08-19, 6.18
2005-08-24, 6.5
2005-08-29, 6.27
2005-09-01, 6.43
2005-09-07, 6.14
2005-09-12, 6.03
2005-09-15, 5.97
2005-09-20, 6.37
2005-09-23, 6.3
2005-09-28, 6.35
2005-10-03, 6.2
2005-10-06, 5.77
2005-10-11, 5.97
2005-10-14, 5.37
2005-10-19, 4.95
2005-10-24, 4.8
2005-10-27, 4.77
2005-11-01, 5.36
2005-11-04, 5.34
2005-11-09, 5.22
2005-11-14, 5.0
2005-11-17, 5.26
2005-11-22, 5.56
2005-11-28, 5.07
2005-12-01, 5.25
2005-12-06, 5.36
2005-12-09, 5.43
2005-12-14, 5.8
2005-12-19, 5.38
2005-12-22, 5.38
2005-12-28, 5.18
2006-01-03, 5.2
2006-01-06, 5.15
2006-01-11, 5.13
2006-01-17, 5.2
2006-01-20, 5.22
2006-01-25, 5.55
2006-01-30, 5.84
2006-02-02, 5.73
2006-02-07, 6.09
2006-02-10, 5.78
2006-02-15, 5.17
2006-02-21, 5.78
2006-02-24, 6.05
2006-03-01, 5.61
2006-03-06, 6.0
2006-03-09, 5.51
2006-03-14, 5.57
2006-03-17, 5.58
2006-03-22, 5.41
2006-03-27, 5.44
2006-03-30, 5.39
2006-04-04, 5.28
2006-04-07, 5.9
2006-04-12, 5.9
2006-04-18, 6.01
2006-04-21, 6.05
2006-04-26, 6.02
2006-05-01, 5.9
2006-05-04, 5.85
2006-05-09, 5.84
2006-05-12, 5.45
2006-05-17, 5.16
2006-05-22, 4.85
2006-05-25, 5.12
2006-05-31, 5.13
2006-06-05, 5.29
2006-06-08, 4.88
2006-06-13, 4.35
2006-06-16, 4.66
2006-06-21, 4.57
2006-06-26, 4.66
2006-06-29, 4.64
2006-07-05, 5.12
2006-07-10, 4.87
2006-07-13, 4.82
2006-07-18, 4.59
2006-07-21, 4.5
2006-07-26, 4.68
2006-07-31, 4.95
2006-08-03, 4.79
2006-08-08, 4.94
2006-08-11, 4.86
2006-08-16, 4.8
2006-08-21, 4.79
2006-08-24, 4.78
2006-08-29, 4.76
2006-09-01, 5.08
2006-09-07, 5.08
2006-09-12, 4.65
2006-09-15, 4.6
2006-09-20, 4.7
2006-09-25, 4.56
2006-09-28, 4.7
2006-10-03, 4.64
2006-10-06, 4.45
2006-10-11, 4.71
2006-10-16, 4.9
2006-10-19, 4.82
2006-10-24, 4.68
2006-10-27, 4.77
2006-11-01, 4.68
2006-11-06, 4.58
2006-11-09, 4.71
2006-11-14, 4.81
2006-11-17, 5.22
2006-11-22, 5.04
2006-11-28, 5.03
2006-12-01, 5.18
2006-12-06, 5.06
2006-12-11, 5.43
2006-12-14, 5.35
2006-12-19, 5.19
2006-12-22, 4.99
2006-12-28, 5.01
2007-01-04, 4.64
2007-01-09, 4.83
2007-01-12, 4.74
2007-01-18, 4.8
2007-01-23, 4.98
2007-01-26, 4.94
2007-01-31, 4.96
2007-02-05, 4.7
2007-02-08, 4.77
2007-02-13, 4.63
2007-02-16, 4.41
2007-02-22, 4.62
2007-02-27, 4.44
2007-03-02, 4.18
2007-03-07, 4.44
2007-03-12, 4.48
2007-03-15, 4.12
2007-03-20, 3.86
2007-03-23, 4.09
2007-03-28, 3.89
2007-04-02, 4.0
2007-04-05, 3.99
2007-04-11, 3.91
2007-04-16, 3.92
2007-04-19, 3.93
2007-04-24, 4.28
2007-04-27, 4.43
2007-05-02, 4.17
2007-05-07, 4.0
2007-05-10, 3.96
2007-05-15, 3.87
2007-05-18, 3.88
2007-05-23, 3.97
2007-05-29, 3.86
2007-06-01, 4.01
2007-06-06, 4.06
2007-06-11, 4.02
2007-06-14, 3.94
2007-06-19, 4.23
2007-06-22, 4.33
2007-06-27, 4.27
2007-07-02, 4.41
2007-07-06, 4.9
2007-07-11, 4.9
2007-07-16, 5.27
2007-07-19, 5.37
2007-07-24, 5.04
2007-07-27, 4.89
2007-08-01, 4.33
2007-08-06, 3.99
2007-08-09, 3.8
2007-08-14, 3.65
2007-08-17, 3.88
2007-08-22, 3.89
2007-08-27, 4.11
2007-08-30, 3.94
2007-09-05, 4.03
2007-09-10, 4.36
2007-09-13, 4.51
2007-09-18, 4.62
2007-09-21, 4.78
2007-09-26, 5.0
2007-10-01, 5.01
2007-10-04, 4.95
2007-10-09, 5.1
2007-10-12, 5.09
2007-10-17, 5.56
2007-10-22, 5.34
2007-10-25, 5.5
2007-10-30, 5.57
2007-11-02, 5.7
2007-11-07, 5.69
2007-11-12, 5.1
2007-11-15, 5.22
2007-11-20, 5.36
2007-11-26, 5.35
2007-11-29, 5.25
2007-12-04, 5.08
2007-12-07, 5.33
2007-12-12, 5.38
2007-12-17, 5.45
2007-12-20, 5.06
2007-12-26, 5.24
2007-12-31, 5.08
2008-01-04, 5.04
2008-01-09, 5.21
2008-01-14, 5.39
2008-01-17, 4.83
2008-01-23, 4.5
2008-01-28, 4.73
2008-01-31, 4.8
2008-02-05, 4.82
2008-02-08, 4.85
2008-02-13, 5.31
2008-02-19, 5.3
2008-02-22, 5.37
2008-02-27, 5.5
2008-03-03, 5.4
2008-03-06, 5.48
2008-03-11, 5.03
2008-03-14, 4.91
2008-03-19, 4.37
2008-03-25, 4.68
2008-03-28, 4.96
2008-04-02, 4.79
2008-04-07, 4.7
2008-04-10, 4.76
2008-04-15, 4.73
2008-04-18, 5.0
2008-04-23, 4.82
2008-04-28, 4.75
2008-05-01, 4.59
2008-05-06, 4.81
2008-05-09, 4.97
2008-05-14, 4.85
2008-05-19, 5.03
2008-05-22, 5.23
2008-05-28, 5.18
2008-06-02, 5.16
2008-06-05, 5.11
2008-06-10, 5.14
2008-06-13, 5.22
2008-06-18, 5.33
2008-06-23, 5.48
2008-06-26, 5.22
2008-07-01, 5.05
2008-07-07, 4.72
2008-07-10, 4.51
2008-07-15, 4.7
2008-07-18, 4.43
2008-07-23, 4.09
2008-07-28, 4.08
2008-07-31, 4.22
2008-08-05, 3.93
2008-08-08, 3.77
2008-08-13, 4.11
2008-08-18, 3.81
2008-08-21, 4.13
2008-08-26, 3.77
2008-08-29, 3.8
2008-09-04, 3.78
2008-09-09, 3.39
2008-09-12, 3.31
2008-09-17, 3.0
2008-09-22, 3.17
2008-09-25, 3.08
2008-09-30, 3.07
2008-10-03, 2.8
2008-10-08, 2.06
2008-10-13, 1.7
2008-10-16, 1.83
2008-10-21, 2.02
2008-10-24, 1.79
2008-10-29, 1.84
2008-11-03, 2.41
2008-11-06, 2.38
2008-11-11, 2.36
2008-11-14, 2.15
2008-11-19, 1.95
2008-11-24, 1.85
2008-11-28, 2.14
2008-12-03, 2.06
2008-12-08, 2.01
2008-12-11, 2.14
2008-12-16, 2.51
2008-12-19, 2.6
2008-12-24, 2.25
2008-12-30, 2.44
2009-01-05, 2.67
2009-01-08, 2.48
2009-01-13, 2.39
2009-01-16, 2.36
2009-01-22, 2.38
2009-01-27, 2.98
2009-01-30, 2.97
2009-02-04, 2.79
2009-02-09, 2.81
2009-02-12, 2.75
2009-02-18, 2.56
2009-02-23, 2.36
2009-02-26, 2.69
2009-03-03, 2.28
2009-03-06, 2.52
2009-03-11, 2.68
2009-03-16, 2.62
2009-03-19, 2.7
2009-03-24, 2.75
2009-03-27, 2.86
2009-04-01, 2.76
2009-04-06, 2.45
2009-04-09, 2.59
2009-04-15, 2.43
2009-04-20, 2.4
2009-04-23, 2.41
2009-04-28, 2.49
2009-05-01, 2.6
2009-05-06, 2.88
2009-05-11, 2.79
2009-05-14, 2.54
2009-05-19, 2.67
2009-05-22, 2.57
2009-05-28, 2.6
2009-06-02, 2.87
2009-06-05, 2.79
2009-06-10, 2.88
2009-06-15, 2.7
2009-06-18, 2.68
2009-06-23, 2.6
2009-06-26, 2.73
2009-07-01, 2.72
2009-07-07, 2.43
2009-07-10, 2.51
2009-07-15, 2.57
2009-07-20, 2.86
2009-07-23, 3.0
2009-07-28, 3.02
2009-07-31, 3.11
2009-08-05, 3.28
2009-08-10, 3.14
2009-08-13, 3.19
2009-08-18, 3.09
2009-08-21, 3.2
2009-08-26, 3.13
2009-08-31, 3.1
2009-09-03, 3.1
2009-09-09, 3.42
2009-09-14, 3.32
2009-09-17, 3.64
2009-09-22, 3.64
2009-09-25, 3.43
2009-09-30, 3.57
2009-10-05, 3.7
2009-10-08, 3.89
2009-10-13, 4.29
2009-10-16, 4.41
2009-10-21, 4.44
2009-10-26, 4.2
2009-10-29, 3.96
2009-11-03, 3.98
2009-11-06, 3.67
2009-11-11, 3.56
2009-11-16, 3.59
2009-11-19, 3.44
2009-11-24, 3.61
2009-11-30, 3.56
2009-12-03, 3.58
2009-12-08, 3.44
2009-12-11, 3.33
2009-12-16, 3.44
2009-12-21, 3.42
2009-12-24, 3.36
2009-12-30, 3.35
2010-01-05, 3.57
2010-01-08, 3.87
2010-01-13, 3.7
2010-01-19, 3.61
2010-01-22, 3.45
2010-01-27, 3.59
2010-02-01, 3.75
2010-02-04, 3.63
2010-02-09, 3.76
2010-02-12, 3.85
2010-02-18, 4.03
2010-02-23, 3.87
2010-02-26, 3.85
2010-03-03, 3.88
2010-03-08, 4.01
2010-03-11, 4.29
2010-03-16, 4.69
2010-03-19, 4.44
2010-03-24, 4.91
2010-03-29, 5.38
2010-04-01, 6.11
2010-04-07, 6.31
2010-04-12, 6.54
2010-04-15, 6.7
2010-04-20, 7.04
2010-04-23, 7.34
2010-04-28, 7.13
2010-05-03, 7.48
2010-05-06, 6.94
2010-05-11, 7.36
2010-05-14, 7.3
2010-05-19, 7.21
2010-05-24, 6.52
2010-05-27, 6.95
2010-06-02, 7.6
2010-06-07, 7.41
2010-06-10, 7.68
2010-06-15, 7.97
2010-06-18, 7.9
2010-06-23, 7.45
2010-06-28, 7.66
2010-07-01, 6.97
2010-07-07, 7.45
2010-07-12, 7.47
2010-07-15, 7.4
2010-07-20, 7.18
2010-07-23, 7.5
2010-07-28, 7.37
2010-08-02, 7.57
2010-08-05, 7.76
2010-08-10, 7.69
2010-08-13, 7.43
2010-08-18, 7.77
2010-08-23, 7.52
2010-08-26, 7.35
2010-08-31, 7.16
2010-09-03, 7.48
2010-09-09, 7.38
2010-09-14, 7.86
2010-09-17, 7.94
2010-09-22, 8.83
2010-09-27, 9.55
2010-09-30, 9.46
2010-10-05, 9.82
2010-10-08, 9.83
2010-10-13, 10.42
2010-10-18, 10.67
2010-10-21, 10.53
2010-10-26, 10.67
2010-10-29, 10.5
2010-11-03, 11.75
2010-11-08, 15.15
2010-11-11, 15.54
2010-11-16, 13.77
2010-11-19, 14.9
2010-11-24, 16.87
2010-11-30, 16.61
2010-12-03, 18.74
2010-12-08, 17.59
2010-12-13, 16.93
2010-12-16, 14.68
2010-12-21, 15.2
2010-12-27, 15.75
2010-12-30, 15.96
2011-01-04, 15.79
2011-01-07, 15.82
2011-01-12, 15.32
2011-01-18, 14.84
2011-01-21, 14.52
2011-01-26, 14.09
2011-01-31, 12.15
2011-02-03, 13.39
2011-02-08, 14.99
2011-02-11, 15.45
2011-02-16, 15.05
2011-02-22, 13.77
2011-02-25, 14.29
2011-03-02, 14.37
2011-03-07, 15.03
2011-03-10, 13.89
2011-03-15, 13.37
2011-03-18, 13.51
2011-03-23, 14.03
2011-03-28, 14.6
2011-03-31, 15.2
2011-04-05, 15.62
2011-04-08, 15.41
2011-04-13, 14.17
2011-04-18, 13.78
2011-04-21, 13.99
2011-04-27, 14.31
2011-05-02, 14.42
2011-05-05, 12.45
2011-05-10, 14.08
2011-05-13, 13.13
2011-05-18, 12.84
2011-05-23, 13.11
2011-05-26, 13.74
2011-06-01, 14.77
2011-06-06, 13.62
2011-06-09, 13.38
2011-06-14, 12.91
2011-06-17, 11.9
2011-06-22, 11.48
2011-06-27, 10.5
2011-06-30, 11.4
2011-07-06, 12.53
2011-07-11, 11.95
2011-07-14, 11.76
2011-07-19, 11.73
2011-07-22, 12.0
2011-07-27, 11.13
2011-08-01, 10.93
2011-08-04, 9.44
2011-08-09, 9.19
2011-08-12, 9.33
2011-08-17, 9.38
2011-08-22, 8.55
2011-08-25, 8.93
2011-08-30, 9.52
2011-09-02, 9.33
2011-09-08, 10.0
2011-09-13, 9.17
2011-09-16, 10.46
2011-09-21, 9.33
2011-09-26, 8.52
2011-09-29, 8.57
2011-10-04, 7.54
2011-10-07, 8.43
2011-10-12, 9.04
2011-10-17, 8.82
2011-10-20, 9.22
2011-10-25, 10.32
2011-10-28, 10.86
2011-11-02, 9.95
2011-11-07, 10.15
2011-11-10, 9.27
2011-11-15, 9.38
2011-11-18, 8.56
2011-11-23, 7.37
2011-11-29, 7.91
2011-12-02, 8.28
2011-12-07, 8.0
2011-12-12, 7.48
2011-12-15, 6.87
2011-12-20, 7.84
2011-12-23, 7.94
2011-12-29, 7.85
2012-01-04, 8.12
2012-01-09, 9.08
2012-01-12, 8.96
2012-01-18, 8.88
2012-01-23, 9.77
2012-01-26, 9.45
2012-01-31, 9.7
2012-02-03, 10.18
2012-02-08, 10.32
2012-02-13, 10.44
2012-02-16, 10.39
2012-02-22, 10.43
2012-02-27, 11.17
2012-03-01, 11.67
2012-03-06, 11.22
2012-03-09, 11.72
2012-03-14, 11.81
2012-03-19, 11.83
2012-03-22, 11.61
2012-03-27, 12.36
2012-03-30, 12.08
2012-04-04, 12.3
2012-04-10, 12.37
2012-04-13, 13.27
2012-04-18, 13.04
2012-04-23, 13.16
2012-04-26, 13.89
2012-05-01, 14.43
2012-05-04, 13.29
2012-05-09, 11.77
2012-05-14, 11.2
2012-05-17, 10.15
2012-05-22, 10.58
2012-05-25, 10.46
2012-05-31, 10.3
2012-06-05, 9.57
2012-06-08, 9.78
2012-06-13, 9.8
2012-06-18, 9.36
2012-06-21, 7.97
2012-06-26, 8.02
2012-06-29, 8.95
2012-07-05, 9.0
2012-07-10, 8.79
2012-07-13, 8.95
2012-07-18, 8.9
2012-07-23, 8.76
2012-07-26, 9.16
2012-07-31, 9.58
2012-08-03, 9.24
2012-08-08, 9.68
2012-08-13, 9.43
2012-08-16, 9.93
2012-08-21, 10.87
2012-08-24, 10.59
2012-08-29, 10.5
2012-09-04, 10.3
2012-09-07, 11.96
2012-09-12, 11.38
2012-09-17, 11.78
2012-09-20, 11.71
2012-09-25, 10.63
2012-09-28, 10.86
2012-10-03, 11.01
2012-10-08, 11.13
2012-10-11, 11.14
2012-10-16, 11.35
2012-10-19, 11.39
2012-10-24, 10.96
2012-10-31, 10.77
2012-11-05, 11.96
2012-11-08, 11.76
2012-11-13, 11.39
2012-11-16, 10.75
2012-11-21, 11.07
2012-11-27, 10.31
2012-11-30, 10.36
2012-12-05, 10.19
2012-12-10, 9.81
2012-12-13, 9.45
2012-12-18, 9.68
2012-12-21, 9.61
2012-12-27, 9.43
2013-01-02, 9.63
2013-01-07, 9.23
2013-01-10, 9.62
2013-01-15, 8.43
2013-01-18, 8.78
2013-01-24, 8.27
2013-01-29, 8.43
2013-02-01, 8.71
2013-02-06, 8.77
2013-02-11, 8.75
2013-02-14, 8.45
2013-02-20, 7.72
2013-02-25, 8.01
2013-02-28, 7.85
2013-03-05, 8.46
2013-03-08, 8.94
2013-03-13, 8.91
2013-03-18, 9.02
2013-03-21, 8.85
2013-03-26, 8.62
2013-04-01, 8.37
2013-04-04, 7.74
2013-04-09, 7.62
2013-04-12, 7.93
2013-04-17, 6.9
2013-04-22, 7.23
2013-04-25, 8.12
2013-04-30, 7.92
2013-05-03, 8.17
2013-05-08, 8.24
2013-05-13, 8.02
2013-05-16, 7.45
2013-05-21, 7.58
2013-05-24, 7.45
2013-05-30, 7.67
2013-06-04, 7.24
2013-06-07, 7.16
2013-06-12, 7.1
2013-06-17, 7.08
2013-06-20, 6.09
2013-06-25, 5.72
2013-06-28, 6.2
2013-07-03, 6.19
2013-07-09, 5.81
2013-07-12, 6.02
2013-07-17, 6.11
2013-07-22, 6.19
2013-07-25, 6.42
2013-07-30, 6.29
2013-08-02, 6.74
2013-08-07, 6.95
2013-08-12, 6.49
2013-08-15, 6.49
2013-08-20, 6.74
2013-08-23, 7.03
2013-08-28, 6.73
2013-09-03, 7.06
2013-09-06, 7.29
2013-09-11, 7.38
2013-09-16, 7.69
2013-09-19, 7.8
2013-09-24, 7.76
2013-09-27, 7.86
2013-10-02, 8.15
2013-10-07, 9.06
2013-10-10, 9.05
2013-10-15, 9.01
2013-10-18, 9.42
2013-10-23, 9.22
2013-10-28, 9.28
2013-10-31, 9.07
2013-11-05, 9.41
2013-11-08, 9.04
2013-11-13, 9.03
2013-11-18, 8.58
2013-11-21, 8.89
2013-11-26, 8.73
2013-12-02, 8.76
2013-12-05, 9.15
2013-12-10, 8.88
2013-12-13, 8.56
2013-12-18, 8.41
2013-12-23, 8.33
2013-12-27, 8.31
2014-01-02, 8.33
2014-01-07, 8.43
2014-01-10, 8.02
2014-01-15, 8.58
2014-01-21, 8.34
2014-01-24, 8.39
2014-01-29, 7.52
2014-02-03, 6.9
2014-02-06, 7.24
2014-02-11, 7.07
2014-02-14, 7.33
2014-02-20, 7.12
2014-02-25, 7.44
2014-02-28, 7.39
2014-03-05, 7.75
2014-03-10, 7.68
2014-03-13, 7.35
2014-03-18, 7.59
2014-03-21, 7.37
2014-03-26, 7.31
2014-03-31, 7.58
2014-04-03, 7.69
2014-04-08, 7.48
2014-04-11, 7.16
2014-04-16, 7.61
2014-04-22, 8.0
2014-04-25, 7.86
2014-04-30, 7.8
2014-05-05, 8.06
2014-05-08, 7.01
2014-05-13, 6.65
2014-05-16, 6.52
2014-05-21, 6.61
2014-05-27, 6.78
2014-05-30, 6.91
2014-06-04, 6.94
2014-06-09, 7.2
2014-06-12, 7.15
2014-06-17, 7.17
2014-06-20, 7.58
2014-06-25, 7.18
2014-06-30, 7.49
2014-07-03, 7.53
2014-07-09, 7.13
2014-07-14, 6.8
2014-07-17, 6.56
2014-07-22, 6.69
2014-07-25, 6.66
2014-07-30, 6.48
2014-08-04, 6.28
2014-08-07, 6.11
2014-08-12, 6.36
2014-08-15, 6.39
2014-08-20, 6.31
2014-08-25, 6.61
2014-08-28, 6.73
2014-09-03, 6.78
2014-09-08, 6.31
2014-09-11, 6.21
2014-09-16, 6.52
2014-09-19, 6.24
2014-09-24, 5.9
2014-09-29, 6.2
2014-10-02, 5.65
2014-10-07, 5.44
2014-10-10, 5.08
2014-10-15, 4.98
2014-10-20, 4.88
2014-10-23, 4.78
2014-10-28, 4.56
2014-10-31, 4.34
2014-11-05, 3.98
2014-11-10, 4.03
2014-11-13, 3.81
2014-11-18, 3.86
2014-11-21, 4.03
2014-11-26, 3.61
2014-12-02, 3.14
2014-12-05, 3.33
2014-12-10, 3.0
2014-12-15, 2.9
2014-12-18, 3.26
2014-12-23, 3.56
2014-12-29, 3.66
2015-01-02, 4.08
2015-01-07, 3.54
2015-01-12, 2.92
2015-01-15, 2.75
2015-01-21, 3.0
2015-01-26, 2.87
2015-01-29, 2.76
2015-02-03, 3.3
2015-02-06, 3.19
2015-02-11, 3.13
2015-02-17, 3.25
2015-02-20, 3.03
2015-02-25, 3.03
2015-03-02, 2.97
2015-03-05, 3.03
2015-03-10, 2.9
2015-03-13, 2.83
2015-03-18, 3.02
2015-03-23, 3.31
2015-03-26, 3.62
2015-03-31, 3.54
2015-04-06, 4.03
2015-04-09, 3.96
2015-04-14, 4.07
2015-04-17, 4.28
2015-04-22, 4.33
2015-04-27, 4.39
2015-04-30, 4.55
2015-05-05, 4.57
2015-05-08, 4.24
2015-05-13, 4.1
2015-05-18, 4.18
2015-05-21, 4.23
2015-05-27, 4.0
2015-06-01, 4.03
2015-06-04, 4.01
2015-06-09, 4.15
2015-06-12, 3.96
2015-06-17, 3.93
2015-06-22, 3.69
2015-06-25, 4.04
2015-06-30, 3.99
2015-07-06, 3.72
2015-07-09, 3.76
2015-07-14, 3.56
2015-07-17, 3.2
2015-07-22, 3.1
2015-07-27, 2.79
2015-07-30, 2.99
2015-08-04, 2.99
2015-08-07, 2.87
2015-08-12, 3.09
2015-08-17, 2.84
2015-08-20, 2.68
2015-08-25, 2.69
2015-08-28, 3.28
2015-09-02, 2.85
2015-09-08, 2.82
2015-09-11, 2.67
2015-09-16, 2.86
2015-09-21, 2.81
2015-09-24, 2.61
2015-09-29, 2.59
2015-10-02, 2.79
2015-10-07, 2.98
2015-10-12, 2.83
2015-10-15, 2.84
2015-10-20, 2.74
2015-10-23, 2.65
2015-10-28, 2.65
2015-11-02, 2.68
2015-11-05, 2.79
2015-11-10, 2.65
2015-11-13, 2.17
2015-11-18, 2.09
2015-11-23, 2.03
2015-11-27, 1.99
2015-12-02, 2.09
2015-12-07, 1.81
2015-12-10, 1.7
2015-12-15, 1.63
2015-12-18, 1.68
2015-12-23, 1.86
2015-12-29, 1.74
2016-01-04, 1.78
2016-01-07, 1.63
2016-01-12, 1.35
2016-01-15, 1.28
2016-01-21, 1.06
2016-01-26, 1.24
2016-01-29, 1.44
2016-02-03, 1.27
2016-02-08, 1.23
2016-02-11, 1.19
2016-02-17, 1.39
2016-02-22, 1.42
2016-02-25, 1.46
2016-03-01, 1.49
2016-03-04, 1.66
2016-03-09, 1.65
2016-03-14, 1.69
2016-03-17, 1.68
2016-03-22, 1.65
2016-03-28, 1.65
2016-03-31, 1.66
2016-04-05, 1.62
2016-04-08, 1.75
2016-04-13, 1.77
2016-04-18, 1.8
2016-04-21, 1.89
2016-04-26, 2.01
2016-04-29, 1.94
2016-05-04, 1.84
2016-05-09, 1.84
2016-05-12, 1.97
2016-05-17, 1.93
2016-05-20, 1.75
2016-05-25, 1.77
2016-05-31, 1.69
2016-06-03, 1.72
2016-06-08, 1.81
2016-06-13, 1.72
2016-06-16, 1.6
2016-06-21, 1.72
2016-06-24, 1.81
2016-06-29, 1.84
2016-07-05, 1.8
2016-07-08, 1.75
2016-07-13, 1.75
2016-07-18, 1.79
2016-07-21, 1.74
2016-07-26, 1.65
2016-07-29, 1.63
2016-08-03, 1.6
2016-08-08, 1.61
2016-08-11, 1.98
2016-08-16, 1.92
2016-08-19, 2.01
2016-08-24, 1.91
2016-08-29, 1.85
2016-09-01, 1.86
2016-09-07, 1.97
2016-09-12, 2.09
2016-09-15, 1.95
2016-09-20, 1.96
2016-09-23, 1.89
2016-09-28, 1.94
2016-10-03, 1.99
2016-10-06, 2.08
2016-10-11, 2.07
2016-10-14, 2.13
2016-10-19, 2.06
2016-10-24, 1.95
2016-10-27, 1.85
2016-11-01, 1.81
2016-11-04, 1.8
2016-11-09, 1.84
2016-11-14, 1.76
2016-11-17, 1.76
2016-11-22, 1.78
2016-11-28, 1.77
2016-12-01, 1.93
2016-12-06, 1.72
2016-12-09, 1.75
2016-12-14, 1.71
2016-12-19, 1.67
2016-12-22, 1.69
2016-12-28, 1.71
2017-01-03, 1.83
2017-01-06, 1.8
2017-01-11, 1.82
2017-01-17, 1.8
2017-01-20, 1.74
2017-01-25, 1.73
2017-01-30, 1.66
2017-02-02, 1.72
2017-02-07, 1.7
2017-02-10, 1.79
2017-02-15, 1.75
2017-02-21, 1.76
2017-02-24, 1.65
2017-03-01, 1.7
2017-03-06, 1.59
2017-03-09, 1.57
2017-03-14, 1.55
2017-03-17, 1.6
2017-03-22, 1.5
2017-03-27, 1.49
2017-03-30, 1.59
2017-04-04, 1.58
2017-04-07, 1.58
2017-04-12, 1.64
2017-04-18, 1.51
2017-04-21, 1.53
2017-04-26, 1.5
2017-05-01, 1.48
2017-05-04, 1.38
2017-05-09, 1.43
2017-05-12, 1.5
2017-05-17, 1.54
2017-05-22, 1.6
2017-05-25, 1.48
2017-05-31, 1.44
2017-06-05, 1.41
2017-06-08, 1.36
2017-06-13, 1.33
2017-06-16, 1.28
2017-06-21, 1.22
2017-06-26, 1.32
2017-06-29, 1.3
2017-07-05, 1.31
2017-07-10, 1.28
2017-07-13, 1.33
2017-07-18, 1.36
2017-07-21, 1.36
2017-07-26, 1.34
2017-07-31, 1.35
2017-08-03, 1.29
2017-08-08, 1.24
2017-08-11, 1.19
2017-08-16, 1.23
2017-08-21, 1.2
2017-08-24, 1.31
2017-08-29, 1.29
2017-09-01, 1.29
2017-09-07, 1.29
2017-09-12, 1.17
2017-09-15, 1.07
2017-09-20, 1.16
2017-09-25, 1.29
2017-09-28, 1.38
2017-10-03, 1.42
2017-10-06, 1.51
2017-10-11, 1.64
2017-10-16, 1.6
2017-10-19, 1.61
2017-10-24, 1.57
2017-10-27, 1.6
2017-11-01, 1.77
2017-11-06, 1.54
2017-11-09, 1.51
2017-11-14, 1.48
2017-11-17, 1.48
2017-11-22, 1.49
2017-11-28, 1.48
2017-12-01, 1.45
2017-12-06, 1.37
2017-12-11, 1.37
2017-12-14, 1.33
2017-12-19, 1.26
2017-12-22, 1.34
2017-12-28, 1.4
2018-01-03, 1.44
2018-01-08, 1.44
2018-01-11, 1.48
2018-01-17, 1.45
2018-01-22, 1.47
2018-01-25, 1.48
2018-01-30, 1.39
2018-02-02, 1.44
2018-02-07, 1.37
2018-02-12, 1.33
2018-02-15, 1.3
2018-02-21, 1.28
2018-02-26, 1.34
2018-03-01, 1.29
2018-03-06, 1.28
2018-03-09, 1.29
2018-03-14, 1.33
2018-03-19, 1.34
2018-03-22, 1.45
2018-03-27, 1.35
2018-04-02, 1.32
2018-04-05, 1.26
2018-04-10, 1.3
2018-04-13, 1.36
2018-04-18, 1.39
2018-04-23, 1.57
2018-04-26, 1.63
2018-05-01, 1.83
2018-05-04, 1.87
2018-05-09, 2.12
2018-05-14, 1.92
2018-05-17, 2.04
2018-05-22, 2.24
2018-05-25, 2.27
2018-05-31, 2.54
2018-06-05, 2.36
2018-06-08, 2.46
2018-06-13, 2.4
2018-06-18, 2.33
2018-06-21, 2.31
2018-06-26, 2.44
2018-06-29, 2.77
2018-07-05, 2.9
2018-07-10, 3.41
2018-07-13, 4.05
2018-07-18, 3.59
2018-07-23, 3.42
2018-07-26, 3.35
2018-07-31, 3.24
2018-08-03, 3.22
2018-08-08, 3.21
2018-08-13, 3.06
2018-08-16, 3.07
2018-08-21, 3.47
2018-08-24, 3.49
2018-08-29, 3.46
2018-09-04, 3.32
2018-09-07, 3.21
2018-09-12, 3.63
2018-09-17, 3.55
2018-09-20, 3.31
2018-09-25, 3.44
2018-09-28, 3.34
2018-10-03, 3.45
2018-10-08, 3.28
2018-10-11, 3.0
2018-10-16, 3.11
2018-10-19, 2.99
2018-10-24, 2.34
2018-10-29, 2.31
2018-11-01, 2.47
2018-11-06, 2.39
2018-11-09, 2.17
2018-11-14, 2.15
2018-11-19, 2.32
2018-11-23, 2.13
2018-11-28, 2.05
2018-12-03, 2.18
2018-12-07, 2.0
2018-12-12, 1.88
2018-12-17, 1.77
2018-12-20, 1.62
2018-12-26, 1.66
2018-12-31, 1.87
2019-01-04, 1.94
2019-01-09, 2.09
2019-01-14, 1.94
2019-01-17, 1.94
2019-01-23, 1.75
2019-01-28, 1.79
2019-01-31, 1.81
2019-02-05, 1.92
2019-02-08, 1.84
2019-02-13, 1.98
2019-02-19, 2.12
2019-02-22, 2.07
2019-02-27, 2.02
2019-03-04, 1.98
2019-03-07, 2.04
2019-03-12, 2.11
2019-03-15, 2.03
2019-03-20, 2.14
2019-03-25, 1.86
2019-03-28, 1.85
2019-04-02, 1.86
2019-04-05, 1.84
2019-04-10, 1.89
2019-04-15, 1.86
2019-04-18, 1.88
2019-04-24, 1.92
2019-04-29, 1.95
2019-05-02, 1.89
2019-05-07, 1.84
2019-05-10, 1.78
2019-05-15, 1.75
2019-05-20, 1.7
2019-05-23, 1.52
2019-05-29, 1.51
2019-06-03, 1.53
2019-06-06, 1.51
2019-06-11, 1.47
2019-06-14, 1.4
2019-06-19, 1.4
2019-06-24, 1.39
2019-06-27, 1.42
2019-07-02, 1.36
2019-07-08, 1.35
2019-07-11, 1.47
2019-07-16, 1.46
2019-07-19, 1.45
2019-07-24, 1.45
2019-07-29, 1.4
2019-08-01, 1.53
2019-08-06, 1.43
2019-08-09, 1.43
2019-08-14, 1.43
2019-08-19, 1.45
2019-08-22, 1.43
2019-08-27, 1.33
2019-08-30, 1.33
2019-09-05, 1.37
2019-09-10, 1.49
2019-09-13, 1.41
2019-09-18, 1.44
2019-09-23, 1.41
2019-09-26, 1.36
2019-10-01, 1.32
2019-10-04, 1.31
2019-10-09, 1.3
2019-10-14, 1.3
2019-10-17, 1.27
2019-10-22, 1.24
2019-10-25, 1.21
2019-10-30, 1.17
2019-11-04, 1.24
2019-11-07, 1.24
2019-11-12, 1.18
2019-11-15, 1.18
2019-11-20, 1.14
2019-11-25, 1.14
2019-11-29, 1.13
2019-12-04, 1.14
2019-12-09, 1.18
2019-12-12, 1.23
2019-12-17, 1.25
2019-12-20, 1.45
2019-12-26, 1.44
2019-12-31, 1.38
2020-01-06, 1.42
2020-01-09, 1.39
2020-01-14, 1.38
2020-01-17, 1.39
2020-01-23, 1.31
2020-01-28, 1.26
2020-01-31, 1.28
2020-02-05, 1.28
2020-02-10, 1.25
2020-02-13, 1.23
2020-02-19, 1.22
2020-02-24, 1.21
2020-02-27, 1.08
2020-03-03, 1.11
2020-03-06, 0.97
2020-03-11, 0.64
2020-03-16, 0.51
2020-03-19, 0.38
2020-03-24, 0.42
2020-03-27, 0.39
2020-04-01, 0.34
2020-04-06, 0.41
2020-04-09, 0.48
2020-04-15, 0.43
2020-04-20, 0.43
2020-04-23, 0.45
2020-04-28, 0.47
2020-05-01, 0.57
2020-05-06, 0.53
2020-05-11, 0.52
2020-05-14, 0.47
2020-05-19, 0.52
2020-05-22, 0.54
2020-05-28, 0.54
2020-06-02, 0.52
2020-06-05, 0.63
2020-06-10, 0.63
2020-06-15, 0.59
2020-06-18, 0.57
2020-06-23, 0.58
2020-06-26, 0.56
2020-07-01, 0.59
2020-07-07, 0.6
2020-07-10, 0.6
2020-07-15, 0.59
2020-07-20, 0.58
2020-07-23, 0.6
2020-07-28, 0.59
2020-07-31, 0.58
2020-08-05, 0.6
2020-08-10, 0.62
2020-08-13, 0.6
2020-08-18, 0.6
2020-08-21, 0.57
2020-08-26, 0.55
2020-08-31, 0.55
2020-09-03, 0.51
2020-09-09, 0.47
2020-09-14, 0.46
2020-09-17, 0.44
2020-09-22, 0.4
2020-09-25, 0.4
2020-09-30, 0.41
2020-10-05, 0.4
2020-10-08, 0.52
2020-10-13, 0.44
2020-10-16, 0.45
2020-10-21, 0.44
2020-10-26, 0.4
2020-10-29, 0.38
2020-11-03, 0.42
2020-11-06, 0.43
2020-11-11, 0.44
2020-11-16, 0.44
2020-11-19, 0.46
2020-11-24, 0.49
2020-11-30, 0.51
2020-12-03, 0.64
2020-12-08, 0.88
2020-12-11, 0.93
2020-12-16, 0.92
2020-12-21, 0.83
2020-12-24, 1.01
2020-12-30, 0.87
2021-01-05, 0.95
2021-01-08, 1.14
2021-01-13, 1.12
2021-01-19, 1.15
2021-01-22, 1.11
2021-01-27, 1.03
2021-02-01, 1.1
2021-02-04, 1.23
2021-02-09, 1.36
2021-02-12, 1.4
2021-02-18, 1.38
2021-02-23, 1.48
2021-02-26, 1.45
2021-03-03, 1.47
2021-03-08, 1.52
2021-03-11, 1.72
2021-03-16, 1.77
2021-03-19, 1.68
2021-03-24, 1.6
2021-03-29, 1.54
2021-04-01, 1.61
2021-04-07, 1.46
2021-04-12, 1.46
2021-04-15, 1.59
2021-04-20, 1.5
2021-04-23, 1.53
2021-04-28, 1.61
2021-05-03, 1.59
2021-05-06, 1.62
2021-05-11, 1.54
2021-05-14, 1.57
2021-05-19, 1.77
2021-05-24, 1.79
2021-05-27, 1.75
2021-06-02, 1.88
2021-06-07, 1.91
2021-06-10, 1.9
2021-06-15, 1.85
2021-06-18, 1.82
2021-06-23, 1.93
2021-06-28, 2.0
2021-07-01, 2.0
2021-07-07, 1.79
2021-07-12, 1.89
2021-07-15, 1.7
2021-07-20, 1.62
2021-07-23, 1.7
2021-07-28, 1.65
2021-08-02, 1.58
2021-08-05, 1.59
2021-08-10, 1.73
2021-08-13, 1.61
2021-08-18, 1.62
2021-08-23, 1.69
2021-08-26, 1.78
2021-08-31, 1.81
2021-09-03, 1.86
2021-09-09, 1.8
2021-09-14, 1.79
2021-09-17, 1.94
2021-09-22, 1.99
2021-09-27, 2.08
2021-09-30, 2.19
2021-10-05, 2.76
2021-10-08, 3.18
2021-10-13, 2.83
2021-10-18, 2.57
2021-10-21, 2.64
2021-10-26, 2.77
2021-10-29, 2.67
2021-11-03, 2.57
2021-11-08, 2.95
2021-11-11, 3.0
2021-11-16, 3.31
2021-11-19, 2.76
2021-11-24, 2.99
2021-11-30, 2.68
2021-12-03, 2.62
2021-12-08, 3.0
2021-12-13, 2.88
2021-12-16, 2.71
2021-12-21, 2.95
2021-12-27, 3.07
2021-12-30, 2.95
2021-12-32, 3.6515